# wavelength flux
4171.99854 2.09737e-17
4175.99641 2.01701e-17
4180.00433 1.94864e-17
4184.00220 2.00195e-17
4188.00007 2.03831e-17
4191.99794 1.96266e-17
4195.99581 2.00925e-17
4200.00372 2.04091e-17
4204.00159 2.01526e-17
4207.99946 2.06680e-17
4211.99733 2.08683e-17
4215.99520 2.04455e-17
4220.00312 2.03715e-17
4224.00099 2.11000e-17
4227.99886 2.17209e-17
4231.99673 2.15882e-17
4236.00464 2.17618e-17
4240.00251 2.12218e-17
4244.00038 2.06691e-17
4247.99825 2.06303e-17
4251.99613 2.06580e-17
4256.00404 2.05103e-17
4260.00191 2.04612e-17
4263.99978 2.06836e-17
4267.99765 2.10611e-17
4271.99552 2.10388e-17
4276.00344 2.04342e-17
4280.00131 2.01730e-17
4283.99918 2.04981e-17
4287.99705 2.04731e-17
4291.99492 2.03836e-17
4296.00283 2.05677e-17
4300.00070 1.98269e-17
4303.99857 1.95911e-17
4307.99644 1.97415e-17
4312.00436 1.96056e-17
4316.00223 1.92126e-17
4320.00010 1.86742e-17
4323.99797 1.81772e-17
4327.99584 1.79996e-17
4332.00375 1.79946e-17
4336.00162 1.75420e-17
4339.99949 1.74720e-17
4343.99736 1.75507e-17
4347.99523 1.76612e-17
4352.00315 1.77768e-17
4356.00102 1.72292e-17
4359.99889 1.69536e-17
4363.99676 1.71956e-17
4368.00468 1.66583e-17
4372.00255 1.63112e-17
4376.00042 1.68400e-17
4379.99829 1.66992e-17
4383.99616 1.63630e-17
4388.00407 1.64957e-17
4392.00194 1.65709e-17
4395.99981 1.62532e-17
4399.99768 1.60862e-17
4403.99555 1.63516e-17
4408.00347 1.62063e-17
4412.00134 1.63709e-17
4415.99921 1.67510e-17
4419.99708 1.62968e-17
4424.00499 1.57755e-17
4428.00286 1.58615e-17
4432.00073 1.63753e-17
4435.99860 1.66619e-17
4439.99647 1.64612e-17
4444.00439 1.68105e-17
4448.00226 1.67872e-17
4452.00013 1.71002e-17
4455.99800 1.73742e-17
4459.99587 1.74323e-17
4464.00378 1.75139e-17
4468.00165 1.76811e-17
4471.99952 1.77930e-17
4475.99740 1.81116e-17
4479.99527 1.86380e-17
4484.00318 1.90318e-17
4488.00105 1.91147e-17
4491.99892 1.94662e-17
4495.99679 1.98978e-17
4500.00471 2.00326e-17
4504.00258 2.01104e-17
4508.00045 2.05590e-17
4511.99832 2.09326e-17
4515.99619 2.09275e-17
4520.00410 2.09299e-17
4524.00197 2.15269e-17
4527.99984 2.17369e-17
4531.99771 2.17729e-17
4535.99558 2.21521e-17
4540.00350 2.26312e-17
4544.00137 2.27848e-17
4547.99924 2.26498e-17
4551.99711 2.25335e-17
4555.99498 2.32170e-17
4560.00289 2.34781e-17
4564.00076 2.35009e-17
4567.99863 2.39330e-17
4571.99650 2.44886e-17
4576.00442 2.46081e-17
4580.00229 2.48053e-17
4584.00016 2.50652e-17
4587.99803 2.54817e-17
4591.99590 2.56920e-17
4596.00382 2.59657e-17
4600.00169 2.57692e-17
4603.99956 2.56218e-17
4607.99743 2.59894e-17
4611.99530 2.61661e-17
4616.00321 2.60489e-17
4620.00108 2.61448e-17
4623.99895 2.57385e-17
4627.99682 2.61487e-17
4632.00474 2.61478e-17
4636.00261 2.59658e-17
4640.00048 2.59483e-17
4643.99835 2.59290e-17
4647.99622 2.58908e-17
4652.00413 2.53144e-17
4656.00200 2.50570e-17
4659.99987 2.47672e-17
4663.99774 2.44747e-17
4667.99561 2.42277e-17
4672.00353 2.39073e-17
4676.00140 2.35298e-17
4679.99927 2.31755e-17
4683.99714 2.27961e-17
4687.99501 2.27702e-17
4692.00292 2.20884e-17
4696.00079 2.18394e-17
4699.99867 2.15139e-17
4703.99654 2.11511e-17
4708.00445 2.07677e-17
4712.00232 2.04214e-17
4716.00019 2.01487e-17
4719.99806 1.95752e-17
4723.99593 1.91869e-17
4728.00385 1.87849e-17
4732.00172 1.85702e-17
4735.99959 1.78646e-17
4739.99746 1.74677e-17
4743.99533 1.72342e-17
4748.00324 1.65573e-17
4752.00111 1.59426e-17
4755.99898 1.56025e-17
4759.99685 1.53249e-17
4764.00477 1.50743e-17
4768.00264 1.48648e-17
4772.00051 1.46035e-17
4775.99838 1.41899e-17
4779.99625 1.37265e-17
4784.00416 1.35380e-17
4788.00203 1.37045e-17
4791.99990 1.35048e-17
4795.99777 1.32523e-17
4799.99564 1.30504e-17
4804.00356 1.30392e-17
4808.00143 1.30599e-17
4811.99930 1.30597e-17
4815.99717 1.29061e-17
4820.00509 1.26479e-17
4824.00296 1.27842e-17
4828.00083 1.27708e-17
4831.99870 1.28327e-17
4835.99657 1.27490e-17
4840.00448 1.27335e-17
4844.00235 1.27727e-17
4848.00022 1.29116e-17
4851.99809 1.30730e-17
4855.99596 1.31441e-17
4860.00388 1.34180e-17
4864.00175 1.31329e-17
4867.99962 1.34411e-17
4871.99749 1.34556e-17
4875.99536 1.34512e-17
4880.00327 1.34654e-17
4884.00114 1.32816e-17
4887.99901 1.31244e-17
4891.99688 1.34021e-17
4896.00480 1.34706e-17
4900.00267 1.35420e-17
4904.00054 1.38626e-17
4907.99841 1.40757e-17
4911.99628 1.40752e-17
4916.00419 1.40174e-17
4920.00206 1.40235e-17
4923.99994 1.41608e-17
4927.99781 1.44440e-17
4931.99568 1.43413e-17
4936.00359 1.44895e-17
4940.00146 1.46795e-17
4943.99933 1.47177e-17
4947.99720 1.46595e-17
4951.99507 1.47131e-17
4956.00299 1.49139e-17
4960.00086 1.50723e-17
4963.99873 1.50727e-17
4967.99660 1.49638e-17
4972.00451 1.49150e-17
4976.00238 1.49566e-17
4980.00025 1.49836e-17
4983.99812 1.48406e-17
4987.99599 1.47281e-17
4992.00391 1.48949e-17
4996.00178 1.51680e-17
4999.99965 1.51990e-17
5003.99752 1.49611e-17
5007.99539 1.46748e-17
5012.00330 1.47506e-17
5016.00117 1.49196e-17
5019.99904 1.49023e-17
5023.99691 1.48452e-17
5027.99478 1.49692e-17
5032.00270 1.49698e-17
5036.00057 1.50601e-17
5039.99844 1.51504e-17
5043.99631 1.52406e-17
5048.00423 1.53308e-17
5052.00210 1.54210e-17
5055.99997 1.54182e-17
5059.99784 1.54104e-17
5063.99571 1.53612e-17
5068.00362 1.55976e-17
5072.00149 1.54670e-17
5075.99936 1.56445e-17
5079.99723 1.57743e-17
5083.99510 1.57175e-17
5088.00302 1.58352e-17
5092.00089 1.60908e-17
5095.99876 1.62482e-17
5099.99663 1.63520e-17
5104.00454 1.64119e-17
5108.00241 1.64156e-17
5112.00028 1.67660e-17
5115.99815 1.71464e-17
5119.99602 1.70628e-17
5124.00394 1.69544e-17
5128.00181 1.70335e-17
5131.99968 1.70403e-17
5135.99755 1.70716e-17
5139.99542 1.74924e-17
5144.00333 1.75780e-17
5148.00121 1.77290e-17
5151.99908 1.77093e-17
5155.99695 1.76926e-17
5160.00486 1.78612e-17
5164.00273 1.80148e-17
5168.00060 1.79838e-17
5171.99847 1.80258e-17
5175.99634 1.79902e-17
5180.00426 1.79873e-17
5184.00213 1.81100e-17
5188.00000 1.82309e-17
5191.99787 1.83238e-17
5195.99574 1.83820e-17
5200.00365 1.84038e-17
5204.00152 1.84459e-17
5207.99939 1.85777e-17
5211.99726 1.86809e-17
5215.99513 1.87363e-17
5220.00305 1.88288e-17
5224.00092 1.90237e-17
5227.99879 1.91938e-17
5231.99666 1.94084e-17
5236.00457 1.96162e-17
5240.00244 1.96225e-17
5244.00031 1.98546e-17
5247.99818 2.01115e-17
5251.99605 2.01278e-17
5256.00397 2.02348e-17
5260.00184 2.05982e-17
5263.99971 2.07792e-17
5267.99758 2.07777e-17
5271.99545 2.08712e-17
5276.00337 2.09147e-17
5280.00124 2.12281e-17
5283.99911 2.11498e-17
5287.99698 2.11302e-17
5292.00489 2.12391e-17
5296.00276 2.12708e-17
5300.00063 2.14314e-17
5303.99850 2.16536e-17
5307.99637 2.16066e-17
5312.00429 2.15457e-17
5316.00216 2.15077e-17
5320.00003 2.16609e-17
5323.99790 2.15886e-17
5327.99577 2.15088e-17
5332.00368 2.15925e-17
5336.00155 2.16327e-17
5339.99942 2.15993e-17
5343.99729 2.16544e-17
5347.99516 2.14589e-17
5352.00308 2.14909e-17
5356.00095 2.15830e-17
5359.99882 2.16872e-17
5363.99669 2.15990e-17
5368.00460 2.13982e-17
5372.00248 2.12599e-17
5376.00035 2.11523e-17
5379.99822 2.09862e-17
5383.99609 2.10265e-17
5388.00400 2.11430e-17
5392.00187 2.08936e-17
5395.99974 2.07271e-17
5399.99761 2.07509e-17
5403.99548 2.06830e-17
5408.00340 2.04344e-17
5412.00127 2.02068e-17
5415.99914 2.00885e-17
5419.99701 2.00962e-17
5423.99488 2.01501e-17
5428.00279 1.99391e-17
5432.00066 1.96597e-17
5435.99853 1.95879e-17
5439.99640 1.95367e-17
5444.00432 1.93183e-17
5448.00219 1.91230e-17
5452.00006 1.91114e-17
5455.99793 1.92087e-17
5459.99580 1.92077e-17
5464.00371 1.92126e-17
5468.00158 1.90846e-17
5471.99945 1.90061e-17
5475.99732 1.90503e-17
5479.99520 1.90406e-17
5484.00311 1.89404e-17
5488.00098 1.90300e-17
5491.99885 1.89424e-17
5495.99672 1.88929e-17
5500.00464 1.90026e-17
5504.00251 1.90318e-17
5508.00038 1.89355e-17
5511.99825 1.87642e-17
5515.99612 1.85913e-17
5520.00403 1.85338e-17
5524.00190 1.85052e-17
5527.99977 1.85417e-17
5531.99764 1.83839e-17
5535.99551 1.83182e-17
5540.00343 1.83565e-17
5544.00130 1.83955e-17
5547.99917 1.83107e-17
5551.99704 1.81342e-17
5556.00495 1.80763e-17
5560.00282 1.78851e-17
5564.00069 1.76173e-17
5567.99856 1.73732e-17
5571.99643 1.71822e-17
5576.00435 1.71012e-17
5580.00222 1.70394e-17
5584.00009 1.69031e-17
5587.99796 1.67422e-17
5591.99583 1.65877e-17
5596.00375 1.63675e-17
5600.00162 1.62261e-17
5603.99949 1.61385e-17
5607.99736 1.59510e-17
5611.99523 1.57334e-17
5616.00314 1.56136e-17
5620.00101 1.53035e-17
5623.99888 1.45707e-17
5627.99675 1.44681e-17
5632.00467 1.50503e-17
5636.00254 1.49066e-17
5640.00041 1.44853e-17
5643.99828 1.42420e-17
5647.99615 1.41549e-17
5652.00406 1.40799e-17
5656.00193 1.39718e-17
5659.99980 1.37624e-17
5663.99767 1.35205e-17
5667.99554 1.32929e-17
5672.00346 1.30257e-17
5676.00133 1.30915e-17
5679.99920 1.30823e-17
5683.99707 1.27163e-17
5687.99494 1.23067e-17
5692.00285 1.23179e-17
5696.00072 1.26881e-17
5699.99859 1.27031e-17
5703.99647 1.29064e-17
5708.00438 1.28680e-17
5712.00225 1.29410e-17
5716.00012 1.28924e-17
5719.99799 1.27903e-17
5723.99586 1.29770e-17
5728.00378 1.33073e-17
5732.00165 1.33104e-17
5735.99952 1.32177e-17
5739.99739 1.33404e-17
5743.99526 1.35792e-17
5748.00317 1.37470e-17
5752.00104 1.39308e-17
5755.99891 1.41137e-17
5759.99678 1.42392e-17
5764.00470 1.44418e-17
5768.00257 1.45661e-17
5772.00044 1.46381e-17
5775.99831 1.47986e-17
5779.99618 1.48349e-17
5784.00409 1.49839e-17
5788.00196 1.51929e-17
5791.99983 1.54394e-17
5795.99770 1.57730e-17
5799.99557 1.59039e-17
5804.00349 1.59682e-17
5808.00136 1.63598e-17
5811.99923 1.65706e-17
5815.99710 1.66803e-17
5819.99497 1.68983e-17
5824.00289 1.71569e-17
5828.00076 1.72784e-17
5831.99863 1.73574e-17
5835.99650 1.76597e-17
5840.00441 1.78100e-17
5844.00228 1.80559e-17
5848.00015 1.81648e-17
5851.99802 1.82531e-17
5855.99589 1.84633e-17
5860.00381 1.86904e-17
5864.00168 1.86766e-17
5867.99955 1.84398e-17
5871.99742 1.84526e-17
5875.99529 1.83241e-17
5880.00320 1.83032e-17
5884.00107 1.80353e-17
5887.99894 1.78156e-17
5891.99681 1.78158e-17
5896.00473 1.79239e-17
5900.00260 1.79925e-17
5904.00047 1.80351e-17
5907.99834 1.82153e-17
5911.99621 1.78996e-17
5916.00412 1.76089e-17
5920.00199 1.75127e-17
5923.99986 1.74695e-17
5927.99774 1.75085e-17
5931.99561 1.76460e-17
5936.00352 1.77028e-17
5940.00139 1.75913e-17
5943.99926 1.73705e-17
5947.99713 1.73583e-17
5952.00505 1.72716e-17
5956.00292 1.73373e-17
5960.00079 1.73408e-17
5963.99866 1.73012e-17
5967.99653 1.72888e-17
5972.00444 1.71292e-17
5976.00231 1.70133e-17
5980.00018 1.69366e-17
5983.99805 1.68926e-17
5987.99592 1.67864e-17
5992.00384 1.65777e-17
5996.00171 1.65066e-17
5999.99958 1.65081e-17
6003.99745 1.63506e-17
6007.99532 1.62207e-17
6012.00323 1.63748e-17
6016.00110 1.61766e-17
6019.99897 1.60712e-17
6023.99684 1.60216e-17
6028.00476 1.58782e-17
6032.00263 1.57897e-17
6036.00050 1.57937e-17
6039.99837 1.56875e-17
6043.99624 1.54796e-17
6048.00416 1.53537e-17
6052.00203 1.52943e-17
6055.99990 1.52622e-17
6059.99777 1.51929e-17
6063.99564 1.51705e-17
6068.00355 1.52209e-17
6072.00142 1.52351e-17
6075.99929 1.51263e-17
6079.99716 1.49895e-17
6083.99503 1.50032e-17
6088.00295 1.49006e-17
6092.00082 1.47938e-17
6095.99869 1.46400e-17
6099.99656 1.44763e-17
6104.00447 1.42823e-17
6108.00234 1.41074e-17
6112.00021 1.40819e-17
6115.99808 1.39887e-17
6119.99595 1.38061e-17
6124.00387 1.36322e-17
6128.00174 1.34320e-17
6131.99961 1.32905e-17
6135.99748 1.31055e-17
6139.99535 1.28459e-17
6144.00326 1.26538e-17
6148.00113 1.26007e-17
6151.99901 1.26414e-17
6155.99688 1.25272e-17
6160.00479 1.22726e-17
6164.00266 1.21154e-17
6168.00053 1.20354e-17
6171.99840 1.19998e-17
6175.99627 1.19089e-17
6180.00419 1.17188e-17
6184.00206 1.16834e-17
6187.99993 1.17043e-17
6191.99780 1.17053e-17
6195.99567 1.11209e-17
6200.00358 1.06539e-17
6204.00145 1.09442e-17
6207.99932 1.13401e-17
6211.99719 1.12527e-17
6215.99506 1.11645e-17
6220.00298 1.11143e-17
6224.00085 1.10648e-17
6227.99872 1.08823e-17
6231.99659 1.07362e-17
6236.00450 1.07538e-17
6240.00237 1.08269e-17
6244.00024 1.08496e-17
6247.99811 1.08859e-17
6251.99598 1.09787e-17
6256.00390 1.09061e-17
6260.00177 1.09650e-17
6263.99964 1.11431e-17
6267.99751 1.11954e-17
6271.99538 1.13173e-17
6276.00330 1.14147e-17
6280.00117 1.14130e-17
6283.99904 1.15110e-17
6287.99691 1.17672e-17
6292.00482 1.19680e-17
6296.00269 1.20954e-17
6300.00056 1.21463e-17
6303.99843 1.23964e-17
6307.99630 1.25536e-17
6312.00422 1.24707e-17
6316.00209 1.24443e-17
6319.99996 1.26618e-17
6323.99783 1.27739e-17
6327.99570 1.28531e-17
6332.00361 1.28722e-17
6336.00148 1.30145e-17
6339.99935 1.32170e-17
6343.99722 1.32327e-17
6347.99509 1.31549e-17
6352.00301 1.32378e-17
6356.00088 1.33844e-17
6359.99875 1.33388e-17
6363.99662 1.35690e-17
6368.00453 1.36968e-17
6372.00240 1.37302e-17
6376.00028 1.37270e-17
6379.99815 1.37370e-17
6383.99602 1.37626e-17
6388.00393 1.38041e-17
6392.00180 1.38903e-17
6395.99967 1.39745e-17
6399.99754 1.40133e-17
6403.99541 1.38878e-17
6408.00333 1.38534e-17
6412.00120 1.38248e-17
6415.99907 1.37870e-17
6419.99694 1.38019e-17
6424.00485 1.38610e-17
6428.00272 1.39265e-17
6432.00059 1.38362e-17
6435.99846 1.37887e-17
6439.99633 1.37503e-17
6444.00425 1.37324e-17
6448.00212 1.36499e-17
6451.99999 1.36385e-17
6455.99786 1.36291e-17
6459.99573 1.33687e-17
6464.00364 1.32842e-17
6468.00151 1.31287e-17
6471.99938 1.30005e-17
6475.99725 1.28393e-17
6479.99512 1.28571e-17
6484.00304 1.29447e-17
6488.00091 1.29539e-17
6491.99878 1.29259e-17
6495.99665 1.28747e-17
6500.00457 1.26501e-17
6504.00244 1.28602e-17
6508.00031 1.28375e-17
6511.99818 1.29195e-17
6515.99605 1.28456e-17
6520.00396 1.27241e-17
6524.00183 1.27870e-17
6527.99970 1.29460e-17
6531.99757 1.30152e-17
6535.99544 1.29011e-17
6540.00336 1.29828e-17
6544.00123 1.29512e-17
6547.99910 1.28902e-17
6551.99697 1.29518e-17
6555.99484 1.30364e-17
6560.00275 1.30598e-17
6564.00062 1.30624e-17
6567.99849 1.29091e-17
6571.99636 1.27596e-17
6576.00428 1.29240e-17
6580.00215 1.29876e-17
6584.00002 1.27500e-17
6587.99789 1.25540e-17
6591.99576 1.25531e-17
6596.00367 1.25995e-17
6600.00155 1.27036e-17
6603.99942 1.30089e-17
6607.99729 1.32453e-17
6611.99516 1.32973e-17
6616.00307 1.33616e-17
6620.00094 1.34702e-17
6623.99881 1.36102e-17
6627.99668 1.36404e-17
6632.00460 1.35603e-17
6636.00247 1.36453e-17
6640.00034 1.36920e-17
6643.99821 1.36614e-17
6647.99608 1.38067e-17
6652.00399 1.38814e-17
6656.00186 1.38633e-17
6659.99973 1.38764e-17
6663.99760 1.39455e-17
6667.99547 1.39350e-17
6672.00339 1.37748e-17
6676.00126 1.37731e-17
6679.99913 1.38804e-17
6683.99700 1.39361e-17
6687.99487 1.38358e-17
6692.00278 1.36819e-17
6696.00065 1.37285e-17
6699.99852 1.38565e-17
6703.99639 1.37140e-17
6708.00431 1.36033e-17
6712.00218 1.35185e-17
6716.00005 1.34396e-17
6719.99792 1.34823e-17
6723.99579 1.36073e-17
6728.00371 1.34914e-17
6732.00158 1.32224e-17
6735.99945 1.31610e-17
6739.99732 1.32380e-17
6743.99519 1.31252e-17
6748.00310 1.29644e-17
6752.00097 1.28508e-17
6755.99884 1.27677e-17
6759.99671 1.27020e-17
6764.00463 1.27546e-17
6768.00250 1.27719e-17
6772.00037 1.26310e-17
6775.99824 1.26434e-17
6779.99611 1.24471e-17
6784.00402 1.24478e-17
6788.00189 1.24363e-17
6791.99976 1.23728e-17
6795.99763 1.22393e-17
6799.99550 1.21591e-17
6804.00342 1.21296e-17
6808.00129 1.20333e-17
6811.99916 1.20146e-17
6815.99703 1.19241e-17
6820.00494 1.19439e-17
6824.00282 1.17964e-17
6828.00069 1.17914e-17
6831.99856 1.18385e-17
6835.99643 1.17056e-17
6840.00434 1.15069e-17
6844.00221 1.15220e-17
6848.00008 1.15067e-17
6851.99795 1.14914e-17
6855.99582 1.14762e-17
6860.00374 1.14609e-17
6864.00161 1.14456e-17
6867.99948 1.14303e-17
6871.99735 1.14151e-17
6875.99522 1.13998e-17
6880.00313 1.13845e-17
6884.00100 1.13692e-17
6887.99887 1.13540e-17
6891.99674 1.13387e-17
6896.00466 1.13235e-17
6900.00253 1.13082e-17
6904.00040 1.12929e-17
6907.99827 1.12777e-17
6911.99614 1.12624e-17
6916.00405 1.12472e-17
6920.00192 1.12319e-17
6923.99979 1.12167e-17
6927.99766 1.12014e-17
6931.99553 1.11862e-17
6936.00345 1.11709e-17
6940.00132 1.12127e-17
6943.99919 1.11875e-17
6947.99706 1.11846e-17
6951.99493 1.11839e-17
6956.00285 1.11769e-17
6960.00072 1.12675e-17
6963.99859 1.12992e-17
6967.99646 1.12714e-17
6972.00437 1.12576e-17
6976.00224 1.12760e-17
6980.00011 1.13605e-17
6983.99798 1.15289e-17
6987.99585 1.14879e-17
6992.00377 1.14841e-17
6996.00164 1.16434e-17
6999.99951 1.16805e-17
7003.99738 1.16030e-17
7007.99525 1.16022e-17
7012.00316 1.17080e-17
7016.00103 1.17846e-17
7019.99890 1.17891e-17
7023.99677 1.16992e-17
7028.00469 1.17431e-17
7032.00256 1.19872e-17
7036.00043 1.20361e-17
7039.99830 1.19455e-17
7043.99617 1.19485e-17
7048.00409 1.20374e-17
7052.00196 1.19911e-17
7055.99983 1.17887e-17
7059.99770 1.18856e-17
7063.99557 1.19349e-17
7068.00348 1.18511e-17
7072.00135 1.17429e-17
7075.99922 1.17507e-17
7079.99709 1.17982e-17
7083.99496 1.18053e-17
7088.00288 1.18527e-17
7092.00075 1.18556e-17
7095.99862 1.18267e-17
7099.99649 1.18116e-17
7104.00440 1.19704e-17
7108.00227 1.19917e-17
7112.00014 1.18307e-17
7115.99801 1.17497e-17
7119.99588 1.18069e-17
7124.00380 1.16942e-17
7128.00167 1.13989e-17
7131.99954 1.15467e-17
7135.99741 1.16364e-17
7139.99528 1.14857e-17
7144.00319 1.14038e-17
7148.00106 1.13580e-17
7151.99893 1.12357e-17
7155.99680 1.11943e-17
7160.00472 1.12732e-17
7164.00259 1.11772e-17
7168.00046 1.11014e-17
7171.99833 1.10281e-17
7175.99620 1.08282e-17
7180.00412 1.07166e-17
7184.00199 1.08229e-17
7187.99986 1.09245e-17
7191.99773 1.07784e-17
7195.99560 1.06021e-17
7200.00351 1.08405e-17
7204.00138 1.08534e-17
7207.99925 1.07254e-17
7211.99712 1.07710e-17
7215.99499 1.10180e-17
7220.00291 1.09864e-17
7224.00078 1.07365e-17
7227.99865 1.10549e-17
7231.99652 1.13527e-17
7236.00443 1.10303e-17
7240.00230 1.07434e-17
7244.00017 1.08266e-17
7247.99804 1.08274e-17
7251.99591 1.07265e-17
7256.00383 1.07030e-17
7260.00170 1.06916e-17
7263.99957 1.06703e-17
7267.99744 1.08495e-17
7271.99531 1.07408e-17
7276.00323 1.06129e-17
7280.00110 1.05523e-17
7283.99897 1.05365e-17
7287.99684 1.05695e-17
7292.00475 1.05992e-17
7296.00262 1.05432e-17
7300.00049 1.04661e-17
7303.99836 1.02589e-17
7307.99623 1.02627e-17
7312.00415 1.05212e-17
7316.00202 1.04955e-17
7319.99989 1.03336e-17
7323.99776 1.02290e-17
7327.99563 1.01645e-17
7332.00354 1.01972e-17
7336.00141 1.03071e-17
7339.99928 1.03645e-17
7343.99715 1.03080e-17
7347.99502 1.02502e-17
7352.00294 1.01754e-17
7356.00081 1.01373e-17
7359.99868 1.01330e-17
7363.99655 1.00733e-17
7368.00446 9.98919e-18
7372.00233 1.01030e-17
7376.00020 1.01683e-17
7379.99807 1.01636e-17
7383.99595 9.96568e-18
7388.00386 9.95815e-18
7392.00173 1.00382e-17
7395.99960 9.97663e-18
7399.99747 9.93321e-18
7403.99534 1.00373e-17
7408.00326 1.00161e-17
7412.00113 9.92068e-18
7415.99900 9.96920e-18
7419.99687 1.00638e-17
7423.99474 1.00882e-17
7428.00265 1.00678e-17
7432.00052 1.00258e-17
7435.99839 9.94709e-18
7439.99626 9.96406e-18
7444.00418 9.98513e-18
7448.00205 9.96751e-18
7451.99992 9.90787e-18
7455.99779 9.87888e-18
7459.99566 9.99828e-18
7464.00357 1.01019e-17
7468.00144 9.97741e-18
7471.99931 9.78053e-18
7475.99718 9.76422e-18
7479.99505 9.83628e-18
7484.00297 9.75823e-18
7488.00084 9.74401e-18
7491.99871 9.83250e-18
7495.99658 9.78471e-18
7500.00450 9.63112e-18
7504.00237 9.59289e-18
7508.00024 9.54438e-18
7511.99811 9.46400e-18
7515.99598 9.56401e-18
7520.00389 9.63499e-18
7524.00176 9.60118e-18
7527.99963 9.48768e-18
7531.99750 9.33156e-18
7535.99537 9.24235e-18
7540.00329 9.30127e-18
7544.00116 9.33869e-18
7547.99903 9.26294e-18
7551.99690 9.25849e-18
7556.00481 9.25404e-18
7560.00268 9.24959e-18
7564.00055 9.24514e-18
7567.99842 9.24069e-18
7571.99629 9.23624e-18
7576.00421 9.23179e-18
7580.00208 9.22735e-18
7583.99995 9.22290e-18
7587.99782 9.21845e-18
7591.99569 9.21400e-18
7596.00360 9.20956e-18
7600.00147 9.20511e-18
7603.99934 9.20067e-18
7607.99722 9.19622e-18
7611.99509 9.19178e-18
7616.00300 9.18733e-18
7620.00087 9.18289e-18
7623.99874 9.17844e-18
7627.99661 9.17400e-18
7632.00453 9.16956e-18
7636.00240 9.16511e-18
7640.00027 9.16067e-18
7643.99814 9.15623e-18
7647.99601 9.15179e-18
7652.00392 9.14735e-18
7656.00179 9.14291e-18
7659.99966 9.13846e-18
7663.99753 9.13402e-18
7667.99540 9.12958e-18
7672.00332 9.12514e-18
7676.00119 9.12071e-18
7679.99906 9.11627e-18
7683.99693 9.25565e-18
7688.00484 9.02473e-18
7692.00271 8.95290e-18
7696.00058 8.98845e-18
7699.99845 8.93807e-18
7703.99632 8.87158e-18
7708.00424 8.90655e-18
7712.00211 9.00255e-18
7715.99998 9.07282e-18
7719.99785 9.15267e-18
7723.99572 9.23638e-18
7728.00364 9.16235e-18
7732.00151 8.94484e-18
7735.99938 8.79383e-18
7739.99725 8.76411e-18
7743.99512 8.78024e-18
7748.00303 8.86427e-18
7752.00090 9.10782e-18
7755.99877 9.27729e-18
7759.99664 9.15242e-18
7764.00456 8.85537e-18
7768.00243 8.78223e-18
7772.00030 8.87814e-18
7775.99817 8.80393e-18
7779.99604 8.64552e-18
7784.00395 8.75742e-18
7788.00182 8.89984e-18
7791.99969 8.95376e-18
7795.99756 9.09060e-18
7799.99543 9.05085e-18
7804.00335 8.81717e-18
7808.00122 8.73286e-18
7811.99909 8.81818e-18
7815.99696 8.95180e-18
7819.99483 9.18277e-18
7824.00274 9.21486e-18
7828.00061 9.02777e-18
7831.99849 8.82016e-18
7835.99636 8.66951e-18
7840.00427 8.69493e-18
7844.00214 8.90474e-18
7848.00001 9.14746e-18
7851.99788 9.22497e-18
7855.99575 9.11229e-18
7860.00367 9.07212e-18
7864.00154 8.91210e-18
7867.99941 8.88863e-18
7871.99728 8.86376e-18
7875.99515 8.92977e-18
7880.00306 9.14537e-18
7884.00093 9.24983e-18
7887.99880 9.13443e-18
7891.99667 9.18907e-18
7896.00459 8.82790e-18
7900.00246 8.50467e-18
7904.00033 8.64693e-18
7907.99820 8.87093e-18
7911.99607 8.90362e-18
7916.00398 8.85072e-18
7920.00185 8.85898e-18
7923.99972 8.84737e-18
7927.99759 8.72027e-18
7931.99546 8.53797e-18
7936.00338 8.54355e-18
7940.00125 8.57768e-18
7943.99912 8.52816e-18
7947.99699 8.51472e-18
7952.00491 8.48934e-18
7956.00278 8.43430e-18
7960.00065 8.51557e-18
7963.99852 8.37073e-18
7967.99639 8.16648e-18
7972.00430 8.07714e-18
7976.00217 8.13448e-18
7980.00004 8.41435e-18
7983.99791 8.58076e-18
7987.99578 8.53804e-18
7992.00370 8.44257e-18
7996.00157 8.16415e-18
7999.99944 8.03773e-18
8003.99731 7.90303e-18
8007.99518 7.72093e-18
8012.00309 7.74261e-18
8016.00096 7.88966e-18
8019.99883 7.89257e-18
8023.99670 7.73755e-18
8028.00462 7.64699e-18
8032.00249 7.59433e-18
8036.00036 7.35781e-18
8039.99823 7.26466e-18
8043.99610 7.32354e-18
8048.00401 7.24935e-18
8052.00188 7.21051e-18
8055.99976 7.25311e-18
8059.99763 7.23322e-18
8063.99550 7.15566e-18
8068.00341 7.01814e-18
8072.00128 6.72137e-18
8075.99915 6.70072e-18
8079.99702 6.71865e-18
8083.99489 6.65476e-18
8088.00281 6.68979e-18
8092.00068 6.78589e-18
8095.99855 6.70494e-18
8099.99642 6.51122e-18
8104.00433 6.45051e-18
8108.00220 6.27077e-18
8112.00007 6.08404e-18
8115.99794 6.06926e-18
8119.99581 6.04768e-18
8124.00373 5.91982e-18
8128.00160 5.82765e-18
8131.99947 5.86878e-18
8135.99734 5.85769e-18
8139.99521 5.66140e-18
8144.00312 5.51713e-18
8148.00099 5.53567e-18
8151.99886 5.58150e-18
8155.99673 5.44357e-18
8160.00465 5.33980e-18
8164.00252 5.45969e-18
8168.00039 5.53468e-18
8171.99826 5.39823e-18
8175.99613 5.43634e-18
8180.00405 5.37889e-18
8184.00192 5.08603e-18
8187.99979 5.01179e-18
8191.99766 4.99315e-18
8195.99553 4.93943e-18
8200.00344 4.98519e-18
8204.00131 5.01572e-18
8207.99918 4.96929e-18
8211.99705 4.96838e-18
8215.99492 4.87090e-18
8220.00284 4.81914e-18
8224.00071 4.83672e-18
8227.99858 4.77617e-18
8231.99645 4.63476e-18
8236.00436 4.58038e-18
8240.00223 4.66881e-18
8244.00010 4.87070e-18
8247.99797 4.69524e-18
8251.99584 4.77225e-18
8256.00376 4.71560e-18
8260.00163 4.58625e-18
8263.99950 4.50292e-18
8267.99737 4.44961e-18
8271.99524 4.47537e-18
8276.00315 4.69661e-18
8280.00103 4.77449e-18
8283.99890 4.64465e-18
8287.99677 4.78801e-18
8292.00468 4.73855e-18
8296.00255 4.45785e-18
8300.00042 4.36033e-18
8303.99829 4.53209e-18
8307.99616 4.58043e-18
8312.00408 4.50834e-18
8316.00195 4.66268e-18
8319.99982 4.83295e-18
8323.99769 4.77166e-18
8327.99556 4.62749e-18
8332.00347 4.61229e-18
8336.00134 4.56836e-18
8339.99921 4.35606e-18
8343.99708 4.30100e-18
8347.99495 4.49466e-18
8352.00287 4.69668e-18
8356.00074 4.86254e-18
8359.99861 4.77663e-18
8363.99648 4.59512e-18
8368.00439 4.54264e-18
8372.00226 4.53359e-18
8376.00013 4.43254e-18
8379.99800 4.49532e-18
8383.99587 4.78689e-18
8388.00379 4.71683e-18
8392.00166 4.74214e-18
8395.99953 4.70554e-18
8399.99740 4.43590e-18
8403.99527 4.38558e-18
8408.00319 4.72003e-18
8412.00106 4.87332e-18
8415.99893 4.78838e-18
8419.99680 4.97433e-18
8423.99467 4.93144e-18
8428.00258 4.96370e-18
8432.00045 5.00015e-18
8435.99832 5.02618e-18
8439.99619 4.95658e-18
8444.00411 4.80344e-18
8448.00198 4.82049e-18
8451.99985 5.00157e-18
8455.99772 4.97536e-18
8459.99559 5.22836e-18
8464.00350 5.42515e-18
8468.00137 5.38159e-18
8471.99924 5.37455e-18
8475.99711 5.48002e-18
8479.99498 5.45760e-18
8484.00290 5.36726e-18
8488.00077 5.52000e-18
8491.99864 5.68646e-18
8495.99651 5.70706e-18
8500.00442 5.76358e-18
8504.00230 5.85604e-18
8508.00017 5.85594e-18
8511.99804 5.80902e-18
8515.99591 5.85232e-18
8520.00382 5.84112e-18
8524.00169 5.64970e-18
8527.99956 5.75946e-18
8531.99743 6.07031e-18
8535.99530 6.13943e-18
8540.00322 6.19786e-18
8544.00109 6.35327e-18
8547.99896 6.40412e-18
8551.99683 6.32168e-18
8555.99470 6.25472e-18
8560.00261 6.36002e-18
8564.00048 6.41890e-18
8567.99835 6.53997e-18
8571.99622 6.72645e-18
8576.00414 6.84224e-18
8580.00201 6.88751e-18
8583.99988 6.95404e-18
8587.99775 6.98207e-18
8591.99562 6.90341e-18
8596.00353 6.82843e-18
8600.00140 6.77519e-18
8603.99927 6.85428e-18
8607.99714 7.06303e-18
8611.99502 7.34526e-18
8616.00293 7.46131e-18
8620.00080 7.32664e-18
8623.99867 7.35498e-18
8627.99654 7.45625e-18
8632.00446 7.57066e-18
8636.00233 7.23241e-18
8640.00020 7.18880e-18
8643.99807 7.34455e-18
8647.99594 7.46618e-18
8652.00385 7.59931e-18
8656.00172 7.77526e-18
8659.99959 7.86013e-18
8663.99746 7.72693e-18
8667.99533 7.48847e-18
8672.00325 7.40043e-18
8676.00112 7.34286e-18
8679.99899 7.32474e-18
8683.99686 7.45777e-18
8688.00477 7.63220e-18
8692.00264 7.65149e-18
8696.00051 7.81233e-18
8699.99838 7.62981e-18
8703.99625 7.79963e-18
8708.00417 7.63001e-18
8712.00204 7.48439e-18
8715.99991 7.48123e-18
8719.99778 7.41314e-18
8723.99565 7.35279e-18
8728.00357 7.62315e-18
8732.00144 7.98696e-18
8735.99931 8.03871e-18
8739.99718 7.86756e-18
8744.00509 7.78636e-18
8748.00296 7.57860e-18
8752.00083 7.22741e-18
8755.99870 7.03158e-18
8759.99657 7.15901e-18
8764.00449 7.44516e-18
8768.00236 7.69063e-18
8772.00023 7.66268e-18
8775.99810 7.81083e-18
8779.99597 7.79475e-18
8784.00388 7.56690e-18
8788.00175 7.30284e-18
8791.99962 7.09150e-18
8795.99749 6.99728e-18
8799.99536 7.22184e-18
8804.00328 7.20659e-18
8808.00115 7.29129e-18
8811.99902 7.34854e-18
8815.99689 7.46289e-18
8820.00480 7.60735e-18
8824.00267 7.48691e-18
8828.00054 7.09243e-18
8831.99841 6.89911e-18
8835.99629 6.78303e-18
8840.00420 6.87843e-18
8844.00207 7.22802e-18
8847.99994 7.55387e-18
8851.99781 7.60131e-18
8855.99568 7.33177e-18
8860.00360 7.03591e-18
8864.00147 6.95286e-18
8867.99934 6.89705e-18
8871.99721 6.93369e-18
8876.00512 6.95273e-18
8880.00299 6.94936e-18
8884.00086 6.92952e-18
8887.99873 6.88113e-18
8891.99660 6.89734e-18
8896.00452 6.91736e-18
8900.00239 6.73473e-18
8904.00026 6.47172e-18
8907.99813 6.25643e-18
8911.99600 6.11381e-18
8916.00391 6.22877e-18
8920.00178 6.36925e-18
8923.99965 6.52740e-18
8927.99752 6.70623e-18
8931.99539 6.74874e-18
8936.00331 6.61900e-18
8940.00118 6.63507e-18
8943.99905 6.59758e-18
8947.99692 6.17524e-18
8952.00484 5.83546e-18
8956.00271 5.85214e-18
8960.00058 5.97149e-18
8963.99845 6.17293e-18
8967.99632 6.50236e-18
8972.00423 6.41260e-18
8976.00210 5.85626e-18
8979.99997 5.90431e-18
8983.99784 5.97076e-18
8987.99571 6.00066e-18
8992.00363 5.90673e-18
8996.00150 5.74663e-18
8999.99937 5.69577e-18
9003.99724 5.85983e-18
9007.99511 6.12514e-18
9012.00302 5.97368e-18
9016.00089 6.09824e-18
9019.99876 6.28759e-18
9023.99663 6.07045e-18
9028.00455 5.70242e-18
9032.00242 5.47940e-18
9036.00029 5.43505e-18
9039.99816 5.59933e-18
9043.99603 5.93454e-18
9048.00394 5.94876e-18
9052.00181 5.55949e-18
9055.99968 5.34788e-18
9059.99756 5.23048e-18
9063.99543 5.21245e-18
9068.00334 5.47255e-18
9072.00121 5.88823e-18
9075.99908 5.97077e-18
9079.99695 5.68003e-18
9083.99482 5.65794e-18
9088.00274 5.57193e-18
9092.00061 5.38715e-18
9095.99848 5.30845e-18
9099.99635 5.31681e-18
9104.00426 5.36000e-18
9108.00213 5.47084e-18
9112.00000 5.52806e-18
9115.99787 5.41053e-18
9119.99574 5.38633e-18
9124.00366 5.58581e-18
9128.00153 5.93658e-18
9131.99940 6.13441e-18
9135.99727 5.93990e-18
9139.99514 5.52525e-18
9144.00305 5.27001e-18
9148.00092 5.23761e-18
9151.99879 5.74842e-18
9155.99666 6.02846e-18
9160.00458 5.86100e-18
9164.00245 5.58442e-18
9168.00032 5.45323e-18
9171.99819 5.56728e-18
9175.99606 5.83719e-18
9180.00398 5.95348e-18
9184.00185 5.68426e-18
9187.99972 5.45481e-18
9191.99759 5.41895e-18
9195.99546 5.44217e-18
9200.00337 5.43297e-18
9204.00124 5.48589e-18
9207.99911 5.76783e-18
9211.99698 6.13255e-18
9215.99485 6.11973e-18
9220.00277 5.82338e-18
9224.00064 5.75650e-18
9227.99851 5.51658e-18
9231.99638 5.44247e-18
9236.00429 5.55360e-18
9240.00216 5.76286e-18
9244.00003 5.87536e-18
9247.99790 5.73642e-18
9251.99577 5.58273e-18
9256.00369 5.61638e-18
9260.00156 5.56989e-18
9263.99943 5.39896e-18
9267.99730 5.12734e-18
9271.99517 4.97406e-18
9276.00308 5.04041e-18
9280.00095 5.22386e-18
9283.99883 5.38972e-18
9287.99670 5.44691e-18
9291.99457 5.14506e-18
9296.00248 5.03290e-18
9300.00035 5.14982e-18
9303.99822 5.00047e-18
9307.99609 4.76368e-18
9312.00401 4.75084e-18
9316.00188 4.79169e-18
9319.99975 4.65834e-18
9323.99762 4.75832e-18
9327.99549 4.89273e-18
9332.00340 4.98467e-18
9336.00127 5.01947e-18
9339.99914 5.21409e-18
9343.99701 5.22093e-18
9347.99488 4.83176e-18
9352.00280 4.46676e-18
9356.00067 4.40797e-18
9359.99854 4.18169e-18
9363.99641 4.30508e-18
9368.00432 5.07983e-18
9372.00219 5.15523e-18
9376.00006 5.11845e-18
9379.99793 5.39585e-18
9383.99580 5.23897e-18
9388.00372 4.30340e-18
9392.00159 3.88195e-18
9395.99946 4.27617e-18
9399.99733 4.67740e-18
9403.99520 4.97953e-18
9408.00312 4.94504e-18
9412.00099 4.67702e-18
9415.99886 4.50639e-18
9419.99673 4.49740e-18
9424.00464 4.47830e-18
9428.00251 4.70324e-18
9432.00038 4.70901e-18
9435.99825 4.51155e-18
9439.99612 4.55744e-18
9444.00404 4.64512e-18
9448.00191 4.45942e-18
9451.99978 4.08619e-18
9455.99765 3.98434e-18
9459.99552 4.32779e-18
9464.00343 4.30622e-18
9468.00130 4.31724e-18
9471.99917 4.38199e-18
9475.99704 4.65759e-18
9479.99491 4.83596e-18
9484.00283 4.60656e-18
9488.00070 4.33700e-18
9491.99857 4.68480e-18
9495.99644 5.44106e-18
9500.00435 5.64339e-18
9504.00222 5.02370e-18
9508.00010 4.39543e-18
9511.99797 4.32660e-18
9515.99584 4.63746e-18
9520.00375 4.91293e-18
9524.00162 4.89354e-18
9527.99949 4.60528e-18
9531.99736 4.43519e-18
9536.00528 4.57394e-18
9540.00315 4.70920e-18
9544.00102 4.79768e-18
9547.99889 5.02593e-18
9551.99676 4.71411e-18
9556.00467 4.32200e-18
9560.00254 4.56329e-18
9564.00041 4.53918e-18
9567.99828 4.30380e-18
9571.99615 4.36662e-18
9576.00407 4.27390e-18
9580.00194 4.30206e-18
9583.99981 4.65526e-18
9587.99768 5.04533e-18
9591.99555 5.02630e-18
9596.00346 4.63596e-18
9600.00133 4.39697e-18
9603.99920 4.29886e-18
9607.99707 3.97279e-18
9612.00499 3.92742e-18
9616.00286 4.20892e-18
9620.00073 4.59249e-18
9623.99860 4.75773e-18
9627.99647 4.60794e-18
9632.00439 4.38218e-18
9636.00226 4.36254e-18
9640.00013 4.54406e-18
9643.99800 4.36128e-18
9647.99587 4.01486e-18
9652.00378 4.03554e-18
9656.00165 4.18236e-18
9659.99952 4.38799e-18
9663.99739 4.58712e-18
9667.99526 4.35807e-18
9672.00318 4.14771e-18
9676.00105 3.89024e-18
9679.99892 3.99073e-18
9683.99679 4.12413e-18
9688.00470 4.25890e-18
9692.00257 4.40790e-18
9696.00044 4.47148e-18
9699.99831 4.39966e-18
9703.99618 4.29600e-18
9708.00410 4.09526e-18
9712.00197 4.07717e-18
9715.99984 4.06786e-18
9719.99771 3.93622e-18
9723.99558 4.06743e-18
9728.00349 4.27645e-18
9732.00137 4.30934e-18
9735.99924 4.28479e-18
9739.99711 4.14027e-18
9744.00502 4.21277e-18
9748.00289 4.23114e-18
9752.00076 4.25094e-18
9755.99863 4.43607e-18
9759.99650 4.45039e-18
9764.00442 4.23626e-18
9768.00229 4.10890e-18
9772.00016 4.09496e-18
9775.99803 3.83761e-18
9779.99590 4.05720e-18
9784.00381 4.20383e-18
9788.00168 4.03646e-18
9791.99955 3.97842e-18
9795.99742 4.13318e-18
9799.99529 4.30630e-18
9804.00321 4.36285e-18
9808.00108 4.29579e-18
9811.99895 4.10050e-18
9815.99682 3.95971e-18
9820.00473 3.94282e-18
9824.00260 4.08825e-18
9828.00047 4.22156e-18
9831.99834 4.16909e-18
9835.99621 4.18110e-18
9840.00413 4.37474e-18
9844.00200 4.24031e-18
9847.99987 4.40266e-18
9851.99774 4.08641e-18
9855.99561 4.00357e-18
9860.00353 3.76778e-18
9864.00140 3.87103e-18
9867.99927 4.16070e-18
9871.99714 4.11367e-18
9875.99501 3.89992e-18
9880.00292 3.92272e-18
9884.00079 3.84680e-18
9887.99866 4.06081e-18
9891.99653 4.00481e-18
9896.00445 4.08151e-18
9900.00232 4.14853e-18
9904.00019 4.11764e-18
9907.99806 4.09411e-18
9911.99593 3.90344e-18
9916.00384 3.43126e-18
9920.00171 3.74630e-18
9923.99958 3.92030e-18
9927.99745 3.76484e-18
9931.99532 4.01260e-18
9936.00324 4.06393e-18
9940.00111 3.66347e-18
9943.99898 3.52053e-18
9947.99685 3.75689e-18
9951.99472 4.14932e-18
9956.00264 4.34485e-18
9960.00051 4.08986e-18
9963.99838 3.67320e-18
9967.99625 3.34902e-18
9972.00416 3.66658e-18
9976.00203 4.01413e-18
9979.99990 3.54839e-18
9983.99777 3.58180e-18
9987.99564 3.58055e-18
9992.00356 3.63444e-18
9996.00143 3.55335e-18
9999.99930 3.55955e-18
